Spectrum Name:
Description:
Student ID:
Detector Used:
Comments:
Acquisition Mode:	PHA Pre-Amp
High Voltage:	750
Conversion Gain:	1024
Coarse Gain:	2
Fine Gain:	1.73
Upper Discriminator:	1049
Lower Discriminator:	15
Calibration Coefficients:	1.0	1.0
Calibration Channels:	0	0
Calibration Energies:	0.0	0.0
Elapsed Real Time:	373.95
Elapsed Live Time:	338.03
Start Time:	March 18, 2024, 09:19:36
End Time:	March 18, 2024, 09:25:50
ROIs:
ROI:	Low	High	Gross	Net	FWHM	Centroid


Channel Data:
Channel	Energy	Counts
0	1.0	0
1	2.0	0
2	3.0	0
3	4.0	0
4	5.0	4
5	6.0	5
6	7.0	20
7	8.0	63
8	9.0	70
9	10.0	91
10	11.0	82
11	12.0	121
12	13.0	147
13	14.0	164
14	15.0	200
15	16.0	802
16	17.0	2362
17	18.0	2589
18	19.0	2830
19	20.0	3105
20	21.0	3840
21	22.0	4903
22	23.0	7179
23	24.0	11773
24	25.0	21150
25	26.0	38480
26	27.0	65160
27	28.0	96432
28	29.0	124773
29	30.0	138512
30	31.0	132773
31	32.0	112373
32	33.0	87690
33	34.0	65696
34	35.0	49193
35	36.0	37131
36	37.0	28193
37	38.0	21245
38	39.0	15281
39	40.0	11121
40	41.0	7986
41	42.0	6021
42	43.0	4861
43	44.0	4403
44	45.0	4462
45	46.0	4628
46	47.0	4906
47	48.0	5343
48	49.0	5875
49	50.0	6469
50	51.0	6963
51	52.0	7463
52	53.0	7715
53	54.0	7875
54	55.0	7858
55	56.0	7948
56	57.0	7878
57	58.0	8023
58	59.0	7997
59	60.0	8410
60	61.0	9379
61	62.0	10417
62	63.0	11451
63	64.0	12697
64	65.0	14223
65	66.0	15286
66	67.0	15476
67	68.0	15707
68	69.0	15255
69	70.0	14733
70	71.0	13868
71	72.0	13056
72	73.0	12712
73	74.0	12302
74	75.0	12259
75	76.0	12977
76	77.0	14028
77	78.0	15720
78	79.0	18100
79	80.0	21237
80	81.0	24750
81	82.0	28811
82	83.0	33080
83	84.0	35924
84	85.0	37808
85	86.0	38320
86	87.0	37264
87	88.0	34277
88	89.0	30413
89	90.0	25898
90	91.0	21495
91	92.0	17392
92	93.0	13934
93	94.0	10471
94	95.0	8410
95	96.0	6906
96	97.0	5624
97	98.0	4897
98	99.0	4461
99	100.0	4134
100	101.0	4076
101	102.0	3891
102	103.0	3992
103	104.0	4101
104	105.0	3863
105	106.0	3971
106	107.0	4012
107	108.0	4104
108	109.0	4207
109	110.0	4508
110	111.0	4473
111	112.0	4716
112	113.0	5040
113	114.0	5320
114	115.0	5682
115	116.0	6183
116	117.0	6726
117	118.0	7097
118	119.0	7593
119	120.0	8230
120	121.0	8468
121	122.0	8503
122	123.0	8628
123	124.0	8360
124	125.0	8213
125	126.0	7633
126	127.0	7130
127	128.0	6437
128	129.0	5937
129	130.0	5517
130	131.0	5055
131	132.0	4763
132	133.0	4297
133	134.0	4138
134	135.0	3977
135	136.0	3647
136	137.0	3747
137	138.0	3659
138	139.0	3620
139	140.0	3702
140	141.0	3632
141	142.0	3810
142	143.0	3932
143	144.0	3893
144	145.0	3936
145	146.0	4044
146	147.0	4105
147	148.0	4308
148	149.0	4405
149	150.0	4480
150	151.0	4488
151	152.0	4593
152	153.0	4650
153	154.0	4852
154	155.0	4831
155	156.0	4951
156	157.0	5029
157	158.0	5102
158	159.0	5099
159	160.0	5091
160	161.0	5113
161	162.0	5160
162	163.0	5063
163	164.0	5111
164	165.0	5050
165	166.0	5044
166	167.0	4835
167	168.0	4852
168	169.0	4738
169	170.0	4735
170	171.0	4675
171	172.0	4442
172	173.0	4383
173	174.0	4322
174	175.0	4392
175	176.0	4280
176	177.0	4067
177	178.0	4088
178	179.0	3992
179	180.0	3989
180	181.0	3857
181	182.0	3891
182	183.0	3766
183	184.0	3746
184	185.0	3678
185	186.0	3685
186	187.0	3635
187	188.0	3534
188	189.0	3595
189	190.0	3604
190	191.0	3478
191	192.0	3479
192	193.0	3431
193	194.0	3398
194	195.0	3284
195	196.0	3368
196	197.0	3277
197	198.0	3250
198	199.0	3307
199	200.0	3122
200	201.0	3117
201	202.0	3066
202	203.0	3041
203	204.0	2982
204	205.0	2962
205	206.0	2775
206	207.0	2810
207	208.0	2742
208	209.0	2775
209	210.0	2601
210	211.0	2634
211	212.0	2538
212	213.0	2583
213	214.0	2572
214	215.0	2478
215	216.0	2412
216	217.0	2289
217	218.0	2322
218	219.0	2350
219	220.0	2360
220	221.0	2237
221	222.0	2190
222	223.0	2167
223	224.0	2148
224	225.0	2164
225	226.0	2156
226	227.0	2145
227	228.0	2136
228	229.0	2117
229	230.0	2158
230	231.0	2070
231	232.0	1961
232	233.0	2014
233	234.0	1998
234	235.0	1956
235	236.0	1920
236	237.0	1812
237	238.0	1956
238	239.0	1851
239	240.0	1910
240	241.0	1795
241	242.0	1810
242	243.0	1833
243	244.0	1747
244	245.0	1773
245	246.0	1789
246	247.0	1724
247	248.0	1672
248	249.0	1660
249	250.0	1682
250	251.0	1677
251	252.0	1613
252	253.0	1631
253	254.0	1552
254	255.0	1634
255	256.0	1658
256	257.0	1665
257	258.0	1592
258	259.0	1645
259	260.0	1670
260	261.0	1716
261	262.0	1606
262	263.0	1640
263	264.0	1762
264	265.0	1760
265	266.0	1836
266	267.0	1957
267	268.0	1898
268	269.0	1884
269	270.0	2027
270	271.0	2054
271	272.0	2142
272	273.0	2259
273	274.0	2182
274	275.0	2232
275	276.0	2348
276	277.0	2384
277	278.0	2430
278	279.0	2400
279	280.0	2448
280	281.0	2604
281	282.0	2529
282	283.0	2603
283	284.0	2643
284	285.0	2570
285	286.0	2692
286	287.0	2804
287	288.0	2681
288	289.0	2826
289	290.0	2880
290	291.0	2885
291	292.0	3055
292	293.0	3148
293	294.0	3212
294	295.0	3174
295	296.0	3293
296	297.0	3281
297	298.0	3456
298	299.0	3556
299	300.0	3645
300	301.0	3749
301	302.0	3825
302	303.0	3924
303	304.0	3837
304	305.0	4084
305	306.0	3942
306	307.0	4129
307	308.0	4135
308	309.0	4045
309	310.0	4099
310	311.0	4156
311	312.0	4110
312	313.0	4212
313	314.0	4071
314	315.0	4026
315	316.0	3953
316	317.0	3920
317	318.0	3755
318	319.0	3585
319	320.0	3553
320	321.0	3354
321	322.0	3409
322	323.0	3211
323	324.0	3059
324	325.0	3192
325	326.0	2917
326	327.0	2847
327	328.0	2868
328	329.0	2828
329	330.0	2813
330	331.0	2760
331	332.0	2756
332	333.0	2821
333	334.0	2876
334	335.0	3001
335	336.0	3094
336	337.0	3138
337	338.0	3495
338	339.0	3521
339	340.0	3799
340	341.0	3969
341	342.0	4200
342	343.0	4398
343	344.0	4752
344	345.0	5068
345	346.0	5396
346	347.0	5604
347	348.0	6022
348	349.0	6472
349	350.0	6601
350	351.0	7040
351	352.0	7207
352	353.0	7708
353	354.0	8015
354	355.0	8235
355	356.0	8501
356	357.0	8855
357	358.0	8952
358	359.0	9319
359	360.0	9338
360	361.0	9505
361	362.0	9693
362	363.0	9592
363	364.0	9692
364	365.0	9811
365	366.0	9687
366	367.0	9542
367	368.0	9568
368	369.0	9500
369	370.0	9292
370	371.0	9142
371	372.0	8890
372	373.0	8686
373	374.0	8763
374	375.0	8430
375	376.0	8077
376	377.0	7719
377	378.0	7494
378	379.0	7385
379	380.0	7255
380	381.0	6950
381	382.0	6808
382	383.0	6551
383	384.0	6400
384	385.0	6083
385	386.0	6087
386	387.0	5946
387	388.0	5998
388	389.0	5635
389	390.0	5548
390	391.0	5393
391	392.0	5444
392	393.0	5240
393	394.0	5138
394	395.0	5073
395	396.0	5129
396	397.0	4977
397	398.0	4790
398	399.0	4981
399	400.0	4743
400	401.0	4653
401	402.0	4737
402	403.0	4598
403	404.0	4529
404	405.0	4360
405	406.0	4323
406	407.0	4272
407	408.0	4001
408	409.0	4005
409	410.0	3801
410	411.0	3706
411	412.0	3567
412	413.0	3385
413	414.0	3295
414	415.0	3237
415	416.0	2924
416	417.0	2908
417	418.0	2768
418	419.0	2721
419	420.0	2525
420	421.0	2449
421	422.0	2315
422	423.0	2136
423	424.0	2138
424	425.0	2034
425	426.0	2001
426	427.0	1875
427	428.0	1823
428	429.0	1860
429	430.0	1817
430	431.0	1725
431	432.0	1719
432	433.0	1712
433	434.0	1581
434	435.0	1689
435	436.0	1674
436	437.0	1620
437	438.0	1670
438	439.0	1701
439	440.0	1818
440	441.0	1716
441	442.0	1701
442	443.0	1656
443	444.0	1786
444	445.0	1696
445	446.0	1760
446	447.0	1800
447	448.0	1747
448	449.0	1781
449	450.0	1755
450	451.0	1825
451	452.0	1796
452	453.0	1752
453	454.0	1831
454	455.0	1726
455	456.0	1742
456	457.0	1713
457	458.0	1749
458	459.0	1726
459	460.0	1674
460	461.0	1617
461	462.0	1578
462	463.0	1557
463	464.0	1459
464	465.0	1384
465	466.0	1414
466	467.0	1327
467	468.0	1251
468	469.0	1272
469	470.0	1143
470	471.0	1071
471	472.0	1080
472	473.0	948
473	474.0	882
474	475.0	856
475	476.0	809
476	477.0	789
477	478.0	778
478	479.0	699
479	480.0	662
480	481.0	620
481	482.0	555
482	483.0	558
483	484.0	571
484	485.0	511
485	486.0	502
486	487.0	422
487	488.0	434
488	489.0	401
489	490.0	408
490	491.0	371
491	492.0	355
492	493.0	307
493	494.0	367
494	495.0	322
495	496.0	329
496	497.0	287
497	498.0	273
498	499.0	307
499	500.0	261
500	501.0	252
501	502.0	243
502	503.0	236
503	504.0	220
504	505.0	200
505	506.0	206
506	507.0	180
507	508.0	169
508	509.0	190
509	510.0	154
510	511.0	141
511	512.0	128
512	513.0	154
513	514.0	126
514	515.0	117
515	516.0	102
516	517.0	101
517	518.0	107
518	519.0	90
519	520.0	84
520	521.0	91
521	522.0	84
522	523.0	80
523	524.0	57
524	525.0	55
525	526.0	64
526	527.0	59
527	528.0	56
528	529.0	49
529	530.0	59
530	531.0	47
531	532.0	44
532	533.0	46
533	534.0	34
534	535.0	42
535	536.0	38
536	537.0	40
537	538.0	42
538	539.0	46
539	540.0	28
540	541.0	35
541	542.0	35
542	543.0	28
543	544.0	29
544	545.0	34
545	546.0	28
546	547.0	29
547	548.0	28
548	549.0	37
549	550.0	26
550	551.0	32
551	552.0	29
552	553.0	23
553	554.0	35
554	555.0	29
555	556.0	28
556	557.0	24
557	558.0	30
558	559.0	28
559	560.0	21
560	561.0	26
561	562.0	24
562	563.0	37
563	564.0	25
564	565.0	27
565	566.0	22
566	567.0	18
567	568.0	17
568	569.0	19
569	570.0	26
570	571.0	26
571	572.0	20
572	573.0	27
573	574.0	20
574	575.0	19
575	576.0	26
576	577.0	25
577	578.0	19
578	579.0	23
579	580.0	25
580	581.0	23
581	582.0	25
582	583.0	22
583	584.0	24
584	585.0	16
585	586.0	20
586	587.0	17
587	588.0	20
588	589.0	23
589	590.0	18
590	591.0	20
591	592.0	22
592	593.0	18
593	594.0	25
594	595.0	24
595	596.0	20
596	597.0	17
597	598.0	13
598	599.0	20
599	600.0	12
600	601.0	20
601	602.0	18
602	603.0	17
603	604.0	18
604	605.0	24
605	606.0	16
606	607.0	21
607	608.0	16
608	609.0	12
609	610.0	15
610	611.0	17
611	612.0	17
612	613.0	27
613	614.0	10
614	615.0	17
615	616.0	30
616	617.0	20
617	618.0	19
618	619.0	18
619	620.0	19
620	621.0	18
621	622.0	15
622	623.0	17
623	624.0	18
624	625.0	12
625	626.0	18
626	627.0	18
627	628.0	19
628	629.0	16
629	630.0	23
630	631.0	19
631	632.0	18
632	633.0	19
633	634.0	14
634	635.0	13
635	636.0	23
636	637.0	19
637	638.0	14
638	639.0	17
639	640.0	13
640	641.0	16
641	642.0	20
642	643.0	22
643	644.0	23
644	645.0	24
645	646.0	14
646	647.0	22
647	648.0	18
648	649.0	31
649	650.0	18
650	651.0	20
651	652.0	28
652	653.0	26
653	654.0	21
654	655.0	22
655	656.0	21
656	657.0	32
657	658.0	24
658	659.0	17
659	660.0	20
660	661.0	18
661	662.0	24
662	663.0	29
663	664.0	21
664	665.0	23
665	666.0	27
666	667.0	32
667	668.0	28
668	669.0	25
669	670.0	17
670	671.0	22
671	672.0	18
672	673.0	18
673	674.0	19
674	675.0	21
675	676.0	15
676	677.0	20
677	678.0	19
678	679.0	24
679	680.0	17
680	681.0	23
681	682.0	18
682	683.0	22
683	684.0	22
684	685.0	12
685	686.0	22
686	687.0	11
687	688.0	28
688	689.0	21
689	690.0	25
690	691.0	27
691	692.0	21
692	693.0	20
693	694.0	20
694	695.0	14
695	696.0	15
696	697.0	18
697	698.0	18
698	699.0	16
699	700.0	17
700	701.0	13
701	702.0	16
702	703.0	15
703	704.0	13
704	705.0	17
705	706.0	16
706	707.0	20
707	708.0	9
708	709.0	16
709	710.0	19
710	711.0	9
711	712.0	15
712	713.0	16
713	714.0	13
714	715.0	8
715	716.0	14
716	717.0	12
717	718.0	17
718	719.0	13
719	720.0	9
720	721.0	9
721	722.0	10
722	723.0	11
723	724.0	15
724	725.0	15
725	726.0	15
726	727.0	12
727	728.0	10
728	729.0	8
729	730.0	14
730	731.0	13
731	732.0	13
732	733.0	13
733	734.0	11
734	735.0	10
735	736.0	8
736	737.0	11
737	738.0	13
738	739.0	3
739	740.0	8
740	741.0	8
741	742.0	9
742	743.0	14
743	744.0	6
744	745.0	8
745	746.0	12
746	747.0	7
747	748.0	8
748	749.0	10
749	750.0	12
750	751.0	9
751	752.0	9
752	753.0	4
753	754.0	13
754	755.0	9
755	756.0	10
756	757.0	3
757	758.0	8
758	759.0	6
759	760.0	8
760	761.0	10
761	762.0	6
762	763.0	10
763	764.0	6
764	765.0	6
765	766.0	5
766	767.0	6
767	768.0	5
768	769.0	4
769	770.0	8
770	771.0	12
771	772.0	12
772	773.0	11
773	774.0	10
774	775.0	8
775	776.0	6
776	777.0	9
777	778.0	4
778	779.0	6
779	780.0	8
780	781.0	7
781	782.0	4
782	783.0	7
783	784.0	5
784	785.0	11
785	786.0	7
786	787.0	6
787	788.0	4
788	789.0	5
789	790.0	4
790	791.0	3
791	792.0	8
792	793.0	7
793	794.0	6
794	795.0	7
795	796.0	7
796	797.0	3
797	798.0	4
798	799.0	3
799	800.0	3
800	801.0	8
801	802.0	4
802	803.0	6
803	804.0	7
804	805.0	2
805	806.0	4
806	807.0	3
807	808.0	3
808	809.0	2
809	810.0	2
810	811.0	7
811	812.0	3
812	813.0	3
813	814.0	5
814	815.0	2
815	816.0	4
816	817.0	4
817	818.0	5
818	819.0	4
819	820.0	0
820	821.0	5
821	822.0	2
822	823.0	0
823	824.0	3
824	825.0	2
825	826.0	4
826	827.0	3
827	828.0	4
828	829.0	8
829	830.0	1
830	831.0	4
831	832.0	3
832	833.0	2
833	834.0	2
834	835.0	4
835	836.0	3
836	837.0	4
837	838.0	1
838	839.0	2
839	840.0	1
840	841.0	4
841	842.0	3
842	843.0	3
843	844.0	4
844	845.0	1
845	846.0	2
846	847.0	1
847	848.0	5
848	849.0	5
849	850.0	2
850	851.0	2
851	852.0	2
852	853.0	1
853	854.0	1
854	855.0	0
855	856.0	1
856	857.0	5
857	858.0	1
858	859.0	2
859	860.0	3
860	861.0	2
861	862.0	3
862	863.0	1
863	864.0	2
864	865.0	2
865	866.0	0
866	867.0	5
867	868.0	0
868	869.0	1
869	870.0	2
870	871.0	1
871	872.0	5
872	873.0	2
873	874.0	2
874	875.0	3
875	876.0	1
876	877.0	1
877	878.0	0
878	879.0	1
879	880.0	1
880	881.0	0
881	882.0	2
882	883.0	3
883	884.0	2
884	885.0	0
885	886.0	2
886	887.0	2
887	888.0	2
888	889.0	0
889	890.0	3
890	891.0	2
891	892.0	3
892	893.0	3
893	894.0	1
894	895.0	0
895	896.0	0
896	897.0	1
897	898.0	2
898	899.0	2
899	900.0	2
900	901.0	1
901	902.0	4
902	903.0	0
903	904.0	0
904	905.0	2
905	906.0	0
906	907.0	2
907	908.0	1
908	909.0	0
909	910.0	1
910	911.0	0
911	912.0	0
912	913.0	4
913	914.0	1
914	915.0	0
915	916.0	1
916	917.0	2
917	918.0	2
918	919.0	1
919	920.0	0
920	921.0	1
921	922.0	2
922	923.0	0
923	924.0	1
924	925.0	2
925	926.0	0
926	927.0	0
927	928.0	0
928	929.0	3
929	930.0	0
930	931.0	0
931	932.0	1
932	933.0	1
933	934.0	0
934	935.0	2
935	936.0	2
936	937.0	0
937	938.0	1
938	939.0	2
939	940.0	3
940	941.0	2
941	942.0	0
942	943.0	0
943	944.0	1
944	945.0	2
945	946.0	0
946	947.0	0
947	948.0	1
948	949.0	2
949	950.0	1
950	951.0	3
951	952.0	1
952	953.0	0
953	954.0	0
954	955.0	1
955	956.0	0
956	957.0	0
957	958.0	0
958	959.0	1
959	960.0	0
960	961.0	0
961	962.0	1
962	963.0	1
963	964.0	0
964	965.0	1
965	966.0	2
966	967.0	0
967	968.0	0
968	969.0	2
969	970.0	3
970	971.0	0
971	972.0	0
972	973.0	3
973	974.0	2
974	975.0	0
975	976.0	2
976	977.0	2
977	978.0	0
978	979.0	1
979	980.0	1
980	981.0	0
981	982.0	0
982	983.0	1
983	984.0	0
984	985.0	0
985	986.0	0
986	987.0	2
987	988.0	2
988	989.0	0
989	990.0	1
990	991.0	0
991	992.0	0
992	993.0	0
993	994.0	1
994	995.0	1
995	996.0	1
996	997.0	1
997	998.0	1
998	999.0	1
999	1000.0	1
1000	1001.0	0
1001	1002.0	0
1002	1003.0	2
1003	1004.0	0
1004	1005.0	2
1005	1006.0	0
1006	1007.0	0
1007	1008.0	0
1008	1009.0	0
1009	1010.0	0
1010	1011.0	0
1011	1012.0	0
1012	1013.0	0
1013	1014.0	0
1014	1015.0	1
1015	1016.0	0
1016	1017.0	0
1017	1018.0	2
1018	1019.0	2
1019	1020.0	0
1020	1021.0	0
1021	1022.0	0
1022	1023.0	1
1023	1024.0	1
